#Wave	#Intensity
1318.707031	976.333923
1317.582031	1047.049683
1316.455078	1028.615234
1315.328125	969.141418
1314.201172	984.926331
1313.072266	971.071899
1311.945313	1014.199829
1310.816406	1009.459717
1309.689453	1029.782227
1308.560547	1034.152344
1307.431641	1020.301208
1306.304688	988.238525
1305.175781	949.357483
1304.046875	1010.644287
1302.916016	1030.944214
1301.787109	1051.236816
1300.658203	955.497375
1299.527344	989.443604
1298.398438	1032.474243
1297.267578	991.360046
1296.136719	947.987244
1295.005859	975.091248
1293.875000	970.369995
1292.744141	977.010986
1291.613281	1001.823120
1290.480469	1012.998474
1289.349609	985.564636
1288.216797	946.788269
1287.085938	969.317627
1285.953125	1003.187073
1284.820313	980.313049
1283.687500	1011.899231
1282.554688	968.616028
1281.421875	920.812378
1280.289063	1004.546814
1279.154297	1015.700806
1278.021484	986.048645
1276.886719	974.538147
1275.753906	956.233826
1274.619141	926.608398
1273.484375	917.379822
1272.349609	892.301453
1271.214844	921.575684
1270.078125	948.575378
1268.943359	896.342896
1267.808594	961.809570
1266.671875	907.330933
1265.535156	990.869812
1264.400391	949.976563
1263.263672	897.790955
1262.126953	906.671997
1260.990234	949.458984
1259.853516	947.026245
1258.714844	964.932495
1257.578125	930.866272
1256.441406	892.294495
1255.302734	989.250427
1254.164063	905.518860
1253.025391	916.642822
1251.886719	977.424011
1250.748047	963.704590
1249.609375	952.246643
1248.470703	875.365967
1247.332031	1015.059143
1246.191406	922.407959
1245.052734	917.730225
1243.912109	976.178894
1242.771484	996.287415
1241.630859	917.228699
1240.490234	926.074341
1239.349609	968.708984
1238.208984	916.727112
1237.068359	968.355713
1235.925781	902.883240
1234.785156	936.486084
1233.642578	943.067444
1232.501953	956.397400
1231.359375	895.474548
1230.216797	861.568176
1229.074219	944.628113
1227.931641	998.424500
1226.787109	942.034790
1225.644531	944.110596
1224.500000	896.741150
1223.357422	925.789063
1222.212891	966.059509
1221.068359	896.249512
1219.925781	909.560608
1218.781250	956.548035
1217.634766	987.803162
1216.490234	929.262939
1215.345703	852.790588
1214.199219	922.191528
1213.054688	906.319153
1211.908203	901.667297
1210.761719	903.744751
1209.617188	914.789917
1208.470703	952.731628
1207.322266	957.039673
1206.175781	968.068848
1205.029297	943.246033
1203.882813	891.551331
1202.734375	933.941589
1201.585938	944.966614
1200.439453	935.837952
1199.291016	879.705383
1198.142578	960.112915
1196.994141	935.322937
1195.845703	921.728088
1194.695313	919.322144
1193.546875	894.553162
1192.398438	914.512634
1191.248047	909.873596
1190.097656	880.649475
1188.947266	992.224731
1187.798828	851.279663
1186.648438	906.971191
1185.496094	976.043274
1184.345703	920.036377
1183.195313	872.980774
1182.042969	906.304443
1180.892578	908.369629
1179.740234	868.036316
1178.587891	899.111206
1177.435547	925.713379
1176.283203	903.240784
1175.130859	905.304321
1173.978516	873.926025
1172.826172	860.391174
1171.671875	886.975708
1170.519531	811.054443
1169.365234	884.421204
1168.210938	895.394958
1167.056641	917.499390
1165.902344	926.236389
1164.748047	928.291748
1163.593750	903.637756
1162.439453	923.498840
1161.283203	874.380981
1160.128906	920.933716
1158.972656	820.680786
1157.818359	849.436890
1156.662109	884.852051
1155.505859	922.476929
1154.349609	897.859924
1153.191406	906.582214
1152.035156	857.539490
1150.878906	906.247375
1149.720703	943.833252
1148.564453	921.455139
1147.406250	854.685913
1146.248047	865.625732
1145.089844	943.135742
1143.931641	909.680359
1142.773438	920.603760
1141.615234	893.818542
1140.455078	891.435730
1139.296875	909.007507
1138.136719	957.606323
1136.976563	955.212830
1135.818359	921.798096
1134.658203	943.781921
1133.498047	979.047852
1132.335938	939.003174
1131.175781	985.327881
1130.015625	1018.352539
1128.853516	938.481445
1127.693359	975.928345
1126.531250	977.960083
1125.369141	922.474548
1124.207031	975.385742
1123.044922	919.921204
1121.882813	935.227173
1120.720703	970.422119
1119.556641	914.989136
1118.394531	930.287354
1117.230469	983.137878
1116.068359	996.208740
1114.904297	920.935547
1113.740234	958.301758
1112.576172	913.970642
1111.412109	909.386414
1110.246094	933.492737
1109.082031	944.351440
1107.917969	922.115784
1106.751953	910.916382
1105.585938	893.105469
1104.421875	910.577820
1103.255859	817.824585
1102.089844	892.607483
1100.921875	865.998779
1099.755859	870.243958
1098.589844	841.446472
1097.421875	843.492249
1096.255859	863.152527
1095.087891	865.193420
1093.919922	862.831238
1092.751953	838.463013
1091.583984	877.911926
1090.416016	849.150146
1089.248047	903.978516
1088.080078	906.009155
1086.910156	875.059326
1085.740234	896.878601
1084.572266	854.952820
1083.402344	914.123596
1082.232422	918.347168
1081.062500	915.979370
1079.892578	942.162720
1078.722656	1003.468689
1077.550781	1040.602661
1076.380859	1084.307617
1075.208984	1145.552490
1074.037109	1121.203247
1072.867188	1191.193237
1071.695313	1223.870605
1070.523438	1285.043457
1069.349609	1194.911011
1068.177734	1231.953369
1067.005859	1133.097778
1065.832031	1207.389160
1064.660156	1139.246948
1063.486328	1097.415405
1062.312500	1068.739868
1061.138672	1029.126709
1059.964844	1050.826416
1058.791016	991.532043
1057.617188	1006.665405
1056.441406	916.769348
1055.267578	929.723328
1054.091797	903.303284
1052.916016	918.441589
1051.742188	883.288025
1050.566406	806.614502
1049.390625	839.246582
1048.212891	922.124329
1047.037109	814.900391
1045.861328	816.932068
1044.683594	816.778992
1043.507813	875.580261
1042.330078	847.036072
1041.152344	833.781311
1039.974609	800.891052
1038.796875	811.650208
1037.619141	857.308350
1036.439453	796.078552
1035.261719	789.387390
1034.082031	721.652527
1032.904297	789.091248
1031.724609	703.946533
1030.544922	771.363159
1029.365234	762.504089
1028.185547	758.004578
1027.005859	770.928894
1025.826172	807.799133
1024.644531	737.985168
1023.464844	713.904602
1022.283203	800.815674
1021.101563	746.272217
1019.919922	746.131958
1018.738281	813.413757
1017.556641	824.133301
1016.375000	787.018921
1015.191406	804.260376
1014.009766	791.069519
1012.826172	825.686462
1011.644531	808.151550
1010.460938	860.128540
1009.277344	905.570984
1008.093750	1000.934448
1006.910156	1007.258484
1005.726563	1028.772949
1004.541016	1176.139160
1003.357422	1123.847534
1002.171875	1158.342896
1000.986328	1192.825073
999.802734	1218.620728
998.617188	1263.918213
997.431641	1335.209106
996.244141	1371.798828
995.058594	1436.542236
993.873047	1308.458374
992.685547	1414.341431
991.498047	1275.482422
990.312500	1346.690063
989.125000	1322.624512
987.937500	1361.332031
986.750000	1255.045532
985.562500	1302.404907
984.373047	1289.180786
983.185547	1267.310913
981.996094	1210.853516
980.808594	1279.803467
979.619141	1305.498901
978.429688	1352.794678
977.240234	1397.911865
976.050781	1553.182007
974.861328	1747.269531
973.669922	1986.630737
972.480469	2325.214111
971.289063	2797.500244
970.097656	3584.698730
968.908203	4503.222168
967.716797	4813.027344
966.525391	4404.457031
965.332031	3603.552979
964.140625	2686.521729
962.949219	2039.300659
961.755859	1704.843140
960.564453	1374.821777
959.371094	1193.584839
958.177734	1105.041748
956.984375	1085.449463
955.791016	930.209045
954.597656	919.268616
953.402344	929.856750
952.208984	856.511292
951.013672	774.587036
949.820313	826.069641
948.625000	718.372314
947.429688	769.845886
946.234375	776.149963
945.039063	715.814209
943.843750	747.916260
942.646484	741.328064
941.451172	758.374451
940.253906	683.051880
939.056641	693.660095
937.861328	734.324219
936.664063	714.864197
935.466797	688.972534
934.267578	688.841736
933.070313	720.893738
931.873047	695.015503
930.673828	707.751770
929.476563	720.483093
928.277344	703.195129
927.078125	733.070251
925.878906	709.357178
924.679688	719.935669
923.480469	717.656555
922.279297	711.094604
921.080078	680.979187
919.878906	700.119019
918.677734	704.267151
917.478516	652.767883
916.277344	590.589050
915.076172	665.355957
913.875000	673.785400
912.671875	667.241394
911.470703	690.634399
910.267578	647.747375
909.066406	641.211914
907.863281	660.322510
906.660156	692.245178
905.457031	700.657959
904.253906	691.981506
903.050781	668.360962
901.845703	595.645935
900.642578	693.720520
899.437500	582.614197
898.234375	678.520142
897.029297	678.390808
895.824219	601.477112
894.619141	661.072205
893.414063	633.229004
892.207031	633.108215
891.001953	662.825256
889.796875	632.866699
888.589844	649.789551
887.382813	621.974915
886.175781	613.337585
884.968750	640.900635
883.761719	604.588135
882.554688	617.243225
881.347656	638.405518
880.138672	655.304504
878.931641	601.999146
877.722656	665.688110
876.513672	627.285889
875.304688	648.425842
874.095703	614.292664
872.886719	590.798279
871.677734	597.059631
870.466797	639.432739
869.257813	637.186462
868.046875	639.188171
866.835938	630.573303
865.625000	624.084473
864.414063	670.656372
863.203125	647.186829
861.992188	659.792114
860.781250	602.395752
859.568359	631.970337
858.357422	597.924561
857.144531	646.567627
855.931641	665.519165
854.718750	648.439026
853.505859	633.484131
852.292969	635.481018
851.080078	599.355530
849.865234	622.532715
848.652344	679.573853
847.437500	626.527405
846.222656	632.755981
845.007813	651.677185
843.792969	660.013916
842.578125	670.462463
841.363281	623.812256
840.148438	604.664673
838.931641	642.597168
837.714844	629.793457
836.500000	585.299683
835.283203	631.664368
834.066406	629.430908
832.849609	637.757141
831.632813	624.966431
830.414063	593.181946
829.197266	593.067993
827.978516	616.165771
826.759766	620.266907
825.542969	573.742126
824.324219	601.048096
823.105469	577.738708
821.886719	594.492676
820.666016	600.701538
819.447266	670.127563
818.226563	606.791321
817.007813	572.970459
815.787109	650.786072
814.566406	593.807007
813.345703	616.851013
812.125000	570.424744
810.904297	641.867432
809.681641	677.513184
808.460938	576.406494
807.238281	588.915100
806.015625	582.493103
804.792969	607.610413
803.570313	594.881104
802.347656	601.071472
801.125000	596.753174
799.902344	619.747437
798.677734	548.213257
797.455078	554.407654
796.230469	592.094055
795.005859	604.575195
793.781250	585.569336
792.556641	560.275452
791.332031	530.795349
790.107422	597.816162
788.880859	601.895264
787.656250	574.520874
786.429688	561.831665
785.203125	561.723267
783.976563	555.328125
782.750000	565.696777
781.523438	634.714905
780.296875	598.988159
779.070313	605.154419
777.841797	584.101990
776.613281	590.268616
775.386719	594.340027
774.158203	581.671143
772.929688	612.937866
771.701172	527.066528
770.470703	560.422729
769.242188	606.310303
768.011719	510.038330
766.783203	587.266663
765.552734	664.465027
764.322266	568.237549
763.091797	591.103333
761.861328	557.576172
760.630859	630.544678
759.400391	640.860107
758.167969	553.078369
756.937500	530.017822
755.705078	605.021301
754.472656	598.646545
753.240234	613.128906
752.007813	642.201172
750.775391	604.552795
749.541016	602.351440
748.308594	600.150879
747.074219	577.116577
745.841797	631.164063
744.607422	578.975586
743.373047	560.123169
742.138672	510.050446
740.904297	576.557495
739.667969	605.580139
738.433594	559.688843
737.199219	549.179199
735.962891	555.312073
734.726563	571.839722
733.490234	582.123779
732.253906	563.303345
731.017578	507.082428
729.781250	604.640747
728.542969	521.427368
727.306641	594.020996
726.068359	533.684448
724.830078	543.961731
723.591797	506.491943
722.353516	566.579651
721.115234	572.694519
719.876953	553.912048
718.638672	553.804382
717.398438	578.581970
716.158203	547.369019
714.919922	551.408508
713.679688	603.115356
712.439453	557.410583
711.199219	602.880798
709.957031	573.764587
708.716797	569.511047
707.474609	540.412598
706.234375	561.008850
704.992188	544.341736
703.750000	525.611755
702.507813	595.853210
701.265625	535.749817
700.023438	558.394897
698.779297	558.286133
697.537109	576.783325
696.292969	562.202515
695.050781	572.425598
693.806641	566.115723
692.562500	545.348267
691.318359	541.111328
690.072266	592.628540
688.828125	590.448486
687.583984	567.628235
686.337891	592.281982
685.091797	565.343628
683.845703	567.296204
682.599609	575.435547
681.353516	579.447449
680.107422	604.074646
678.861328	529.750488
677.613281	574.986511
676.367188	548.088013
675.119141	564.461609
673.871094	502.561127
672.623047	578.656128
671.375000	580.601990
670.126953	496.091309
668.876953	582.433228
667.628906	549.396790
666.378906	541.060364
665.128906	512.158569
663.880859	534.679565
662.630859	546.911377
661.380859	561.194031
660.128906	579.581604
658.878906	538.371216
657.626953	530.048096
656.376953	546.376831
655.125000	589.396484
653.873047	537.950073
652.621094	599.430054
651.369141	574.683472
650.117188	523.270020
648.865234	615.491272
647.611328	619.473206
646.357422	578.335205
645.105469	606.928040
643.851563	578.108704
642.597656	588.243591
641.343750	618.866760
640.089844	581.866638
638.833984	626.817993
637.580078	550.918274
636.324219	608.143677
635.068359	618.260559
633.812500	630.420227
632.556641	597.553955
631.300781	617.896912
630.044922	623.912537
628.789063	613.564087
627.531250	664.564026
626.275391	666.478027
625.017578	680.655334
623.759766	633.518738
622.501953	651.783203
621.244141	717.025085
619.986328	676.036194
618.726563	708.575500
617.468750	688.020264
616.208984	706.255981
614.949219	653.056396
613.689453	740.665283
612.429688	744.599731
611.169922	711.819824
609.910156	727.993469
608.648438	760.471130
607.388672	725.668884
606.126953	731.640137
604.867188	751.872192
603.605469	719.129211
602.343750	800.459473
601.080078	720.882690
599.818359	763.496704
598.556641	732.812561
597.292969	714.351624
596.031250	702.002258
594.767578	720.173584
593.503906	758.677551
592.240234	721.923584
590.976563	691.283569
589.710938	713.508057
588.447266	735.723755
587.181641	672.587280
585.917969	629.791443
584.652344	666.228638
583.386719	672.189697
582.121094	684.239502
580.855469	639.444946
579.587891	643.377991
578.322266	665.572144
577.054688	718.189209
575.787109	687.621826
574.521484	644.898499
573.253906	687.350525
571.986328	697.350769
570.716797	678.972107
569.449219	701.128296
568.179688	678.704102
566.912109	781.874756
565.642578	690.587158
564.373047	674.252502
563.103516	757.119019
561.833984	754.945496
560.564453	770.984985
559.292969	772.855835
558.023438	746.406921
556.751953	772.550354
555.482422	754.199768
554.210938	786.395996
552.939453	735.710938
551.666016	757.794067
550.394531	765.725708
549.123047	737.294434
547.849609	777.540283
546.578125	771.328857
545.304688	795.401672
544.031250	811.391357
542.757813	819.302673
541.484375	813.087708
540.208984	909.751770
538.935547	841.000793
537.660156	840.834229
536.386719	907.195313
535.111328	927.171509
533.835938	1007.595459
532.560547	1007.395813
531.283203	1124.030884
530.007813	1091.584229
528.732422	1179.965942
527.455078	1121.349365
526.177734	1177.485229
524.900391	1159.140137
523.623047	1110.622314
522.345703	1114.425293
521.068359	1065.935425
519.791016	1085.831909
518.511719	1089.637207
517.234375	1085.400879
515.955078	1016.858948
514.675781	984.509827
513.396484	924.050171
512.117188	964.034790
510.835938	895.571106
509.556641	869.294312
508.275391	762.739502
506.996094	808.744568
505.714844	742.372314
504.433594	768.302917
503.152344	677.897583
501.871094	715.861877
500.587891	675.623230
499.306641	597.316589
498.023438	607.217896
496.740234	645.165894
495.458984	594.956970
494.175781	612.864014
492.890625	590.715393
491.607422	552.559326
490.324219	584.475403
489.039063	544.334412
487.755859	618.256836
486.470703	574.124207
485.185547	518.008850
483.900391	623.886414
482.615234	617.764404
481.328125	577.664551
480.042969	573.552551
478.755859	527.483276
477.470703	565.333374
476.183594	629.132568
474.896484	621.019714
473.609375	672.803589
472.322266	610.791809
471.033203	706.461365
469.746094	722.282471
468.457031	706.179504
467.169922	777.839111
465.880859	809.588867
464.591797	907.116760
463.300781	966.733643
462.011719	986.469360
460.722656	1077.925903
459.431641	1151.417358
458.142578	1105.378906
456.851563	1019.533203
455.560547	1017.338623
454.269531	933.535156
452.978516	931.358521
451.685547	797.863525
450.394531	791.736145
449.101563	745.833435
447.808594	779.488647
446.517578	681.916138
445.224609	638.050476
443.929688	663.757690
442.636719	639.782104
441.343750	659.519104
440.048828	629.595520
438.755859	561.955444
437.460938	575.740112
436.166016	599.443787
434.871094	555.664429
433.576172	561.505493
432.279297	585.197693
430.984375	547.397339
429.687500	565.133972
428.392578	547.177979
427.095703	562.925354
425.798828	604.428955
424.501953	552.793030
423.203125	586.358154
421.906250	562.474060
420.609375	540.579712
419.310547	566.208008
418.011719	526.507385
416.712891	569.938721
415.414063	534.210327
414.115234	508.387054
412.816406	537.951477
411.515625	565.526550
410.216797	565.413025
408.916016	545.533752
407.615234	488.115143
406.314453	527.532654
405.013672	529.402039
403.712891	533.245667
402.410156	548.935181
401.109375	536.979736
399.806641	562.531128
398.503906	554.524475
397.201172	574.142944
395.898438	520.767212
394.595703	556.162170
393.292969	516.614136
391.988281	569.738342
390.685547	569.623718
389.380859	508.419861
388.076172	535.900635
386.771484	456.999725
385.466797	464.785431
384.162109	478.475098
382.855469	517.751465
381.550781	444.822296
380.244141	450.636230
378.937500	495.796722
377.630859	474.059265
376.324219	475.930359
375.017578	454.205597
373.710938	426.591980
372.402344	481.539001
371.095703	446.070648
369.787109	426.333954
368.478516	443.926453
367.169922	457.584045
365.861328	477.126587
364.552734	506.476593
363.242188	504.411682
361.933594	537.668884
360.623047	519.903259
359.312500	496.260254
358.001953	496.160034
356.691406	498.020538
355.380859	588.094421
354.068359	568.376404
352.757813	615.290100
351.445313	619.083984
350.132813	566.073120
348.822266	595.333740
347.507813	546.264893
346.195313	508.961121
344.882813	542.129700
343.568359	483.317505
342.255859	489.088776
340.941406	477.254059
339.626953	461.513000
338.312500	434.047241
336.998047	418.321198
335.683594	441.689026
334.367188	451.369476
333.052734	484.489014
331.736328	455.093048
330.419922	470.623199
329.103516	480.289856
327.787109	441.152466
326.470703	423.498627
325.154297	409.754303
323.835938	407.720398
322.519531	444.695709
321.201172	388.054840
319.882813	409.422058
318.564453	428.831329
317.246094	385.869904
315.925781	428.657318
314.607422	422.726196
313.287109	381.739716
311.966797	389.451233
310.648438	373.797272
309.328125	381.507233
308.005859	391.160126
306.685547	377.460938
305.365234	398.782318
304.042969	418.150146
302.720703	412.231689
301.400391	402.427429
300.078125	427.613708
298.755859	373.114288
297.431641	371.095490
296.109375	431.237946
294.785156	386.481506
293.462891	386.402893
292.138672	405.737549
290.814453	355.190704
289.490234	362.880585
288.166016	376.387695
286.839844	364.672577
285.515625	345.204803
284.189453	381.974701
282.863281	379.958344
281.537109	407.015289
280.210938	356.550262
278.884766	348.728088
277.558594	358.341919
276.230469	354.395691
274.904297	371.749176
273.576172	379.416565
272.248047	408.370239
270.919922	373.456787
269.591797	361.772919
268.263672	363.633331
266.933594	413.838562
265.605469	407.953796
264.275391	407.870544
262.945313	396.191406
261.615234	483.061584
260.285156	363.188141
258.955078	403.674561
257.623047	424.833771
256.292969	496.181671
254.960938	470.986725
253.628906	447.731903
252.296875	507.454407
250.964844	484.201569
249.632813	526.533875
248.300781	553.422363
246.966797	532.102173
245.632813	501.153137
244.300781	495.269257
242.966797	481.680817
241.632813	483.508575
240.296875	481.483643
238.962891	469.831818
237.628906	460.109894
236.292969	460.015656
234.957031	461.845764
233.621094	415.576019
232.285156	425.108704
230.949219	413.482544
229.613281	446.085052
228.275391	474.829407
226.937500	495.873932
225.601563	520.753052
224.263672	532.173462
222.925781	543.589111
221.587891	556.920471
220.248047	581.766479
218.910156	547.093811
217.570313	589.204590
216.230469	608.272034
214.892578	602.391785
213.552734	565.825134
212.210938	592.556091
210.871094	619.276001
209.531250	542.473999
208.189453	521.281311
206.847656	502.013336
205.505859	488.500305
204.164063	496.061035
202.822266	436.597137
201.480469	459.481415
200.136719	484.270355
198.794922	493.739288
197.451172	430.497986
196.107422	464.842133
194.763672	449.446167
193.419922	434.056488
192.076172	506.613556
190.730469	472.104828
189.386719	464.363739
188.041016	485.284302
186.695313	496.645355
185.349609	519.460388
184.003906	469.709229
182.658203	471.521393
181.310547	456.155365
179.964844	450.336670
178.617188	444.520355
177.269531	396.743164
175.921875	453.872070
174.574219	366.073334
173.226563	373.622742
171.876953	417.380035
170.529297	413.482971
169.179688	365.771118
167.830078	390.456238
166.480469	361.811493
165.130859	390.294922
163.781250	367.372437
162.429688	384.424347
161.080078	369.123291
159.728516	420.409180
158.376953	416.518433
157.025391	422.136841
155.673828	444.863007
154.322266	465.678986
152.970703	437.077576
151.617188	455.986542
150.263672	452.093079
148.910156	459.596100
147.556641	516.463867
146.203125	563.816162
144.849609	611.148804
143.496094	605.329468
142.140625	495.166931
140.785156	517.825867
139.429688	481.686859
138.074219	481.586975
136.718750	468.217804
135.363281	420.740051
134.007813	485.077087
132.650391	435.721039
131.292969	509.498413
129.935547	552.946716
128.578125	649.388184
127.220703	637.896179
125.863281	658.580933
124.503906	675.472900
123.146484	703.707886
121.787109	731.931152
120.427734	780.942505
119.068359	854.510010
117.708984	971.519592
116.349609	1005.332642
114.988281	1101.479492
113.628906	1157.918457
112.267578	1167.120361
110.906250	1108.344849
109.544922	1076.022339
108.183594	947.457520
106.820313	766.110901
105.458984	711.240601
104.095703	680.913513
102.734375	561.966675
101.371094	518.485352
100.007813	491.987244
98.642578	491.884735
97.279297	471.055756
95.916016	474.725220
94.550781	510.411560
93.185547	514.071228
91.820313	495.137482
90.455078	470.564819
89.089844	551.386902
87.724609	543.745972
86.357422	558.681091
84.990234	731.587830
83.625000	729.554810
82.257813	693.684265
80.890625	631.515564
79.521484	528.032104
78.154297	550.466492
76.785156	554.108154
75.417969	567.137878
74.048828	540.733704
72.679688	551.883545
71.310547	600.563965
69.941406	671.740356
68.570313	641.584229
67.201172	575.804504
65.830078	474.423615
64.458984	457.451111
63.087891	425.490417
61.716797	444.141479
60.345703	440.301208
58.972656	344.674255
